<?xml version="1.0" encoding="UTF-8"?>
<Bundle xmlns="http://hl7.org/fhir">
    <id value="f001"/>
    <type value="collection"/>
    <entry>
        <fullUrl value="https://example.com/base/CarePlan/f001"/>
        <resource>
            <CarePlan xmlns="http://hl7.org/fhir">
                <id value="f001"/>
                <text>
                    <status value="generated"/>
                    <div xmlns="http://www.w3.org/1999/xhtml"><p><strong> Generated Narrative with Details</strong></p><p><strong> id</strong> : cc0cce64-9e47-4dc8-ae14-632be427e683</p><p><strong> contained</strong> : ,</p><p><strong> status</strong> : completed</p><p><strong> intent</strong> : plan</p><p><strong> subject</strong> : <a> Leslie</a></p><p><strong> period</strong> : 14/03/2020 --&gt; 21/03/2020</p><p><strong> careTeam</strong> : id: careteam</p><p><strong> addresses</strong> : <a> Leslie's sepsis</a></p><p><strong> goal</strong> : id: goal; lifecycleStatus: cancelled; Review susceptibility tests information</p><blockquote><p><strong> activity</strong></p><h3>Details</h3><table><tbody><tr><td>-</td><td><strong> Identification</strong></td><td><strong> Enterobactor  cloacae complex</strong></td></tr><tr><td>*</td><td>Carbapenemase PCR</td><td>Results/Interpretation</td></tr><tr><td>*</td><td>blaIMP</td><td>Not Detected</td></tr><tr><td>*</td><td>blaKPC</td><td>Not Detected</td></tr>  <tr><td>*</td><td>blaNDM</td><td>Detected*</td></tr><tr><td>*</td><td>blaOXA-48</td><td>ot Detected</td></tr><tr><td>*</td><td>blaVIM</td><td>Not Detected</td></tr></tbody></table></blockquote>
                    </div>
                </text>
                <contained>
                    <CareTeam>
                        <id value="careteam"/>
                        <participant>
                            <role>
                                <coding>
                                    <system value="http://snomed.info/sct"/>
                                    <code value="425268008"/>
                                    <display value="Review of care plan"/>
                                </coding>
                            </role>
                            <member>
                                <reference value="Practitioner/f201"/>
                                <display value="Doctor Cerner"/>
                            </member>
                        </participant>
                    </CareTeam>
                </contained>
                <contained>
                    <Goal>
                        <id value="goal"/>
                        <lifecycleStatus value="cancelled"/>
                        <description>
                            <text value="Check if antibiotic change is required"/>
                        </description>
                        <subject>
                            <reference value="Patient/f201"/>
                            <display value="Leslie"/>
                        </subject>
                    </Goal>
                </contained>
                <status value="completed"/>
                <intent value="plan"/>
                <subject>
                    <!--   It entails Leslie's careplan   -->
                    <reference value="Patient/f201"/>
                    <display value="Leslie"/>
                </subject>
                <period>
                    <start value="2020-03-08"/>
                    <end value="2020-03-15"/>
                </period>
                <CareTeam>
                    <reference value="#careteam"/>
                </CareTeam>
                <addresses>
                    <reference value="Condition/f203"/>
                    <display value="Leslie's sepsis"/>
                </addresses>
                <goal>
                    <reference value="#goal"/>
                </goal>
                <activity>
                    <detail>
                        <kind value="Task"/>
                        <status value="not-started"/>
                        <doNotPerform value="false"/>
                    </detail>
                </activity>
            </CarePlan>
        </resource>
    </entry>
    <entry>
        <fullUrl value="https://example.com/base/Patient/f001"/>
        <resource>
            <Patient xmlns="http://hl7.org/fhir">
                <id value="f201"/>
                <meta>
                    <profile value="http://hl7.org/fhir/us/bser/StructureDefinition/PatientRole"/>
                </meta>
                <identifier>
                    <type>
                        <coding>
                            <system value="http://hl7.org/fhir/v2/0203"/>
                            <code value="MR"/>
                            <display value="Medical Record Number"/>
                        </coding>
                    </type>
                    <system value="urn:oid:2.16.840.1.113883.4.3.17"/>
                    <value value="F255-9215-0094"/>
                </identifier>
                <name>
                    <use value="official"/>
                    <family value="John"/>
                    <given value="Doe"/>
                </name>
                <telecom>
                    <system value="phone"/>
                    <value value="(999) 607-2500"/>
                </telecom>
                <gender value="male"/>
                <birthDate value="1950-03-22"/>
                <address>
                    <line value="609 Lizeth Streets"/>
                    <city value="Chicago"/>
                    <state value="IL"/>
                    <postalCode value="60609"/>
                </address>
                <communication>
                    <language>
                        <coding>
                            <system value="urn:ietf:bcp:47"/>
                            <code value="en-US"/>
                            <display value="English (United States)"/>
                        </coding>
                    </language>
                    <preferred value="true"/>
                </communication>
            </Patient>
        </resource>
    </entry>
    <entry>
        <fullUrl value="https://example.com/base/Condition/c001"/>
        <resource>
            <Condition xmlns="http://hl7.org/fhir">
                <id value="c001"/>
                <text>
                    <status value="generated"/>
                    <div xmlns="http://www.w3.org/1999/xhtml">Severe burn of left ear (Date: 24-May 2012)</div>
                </text>
                <clinicalStatus>
                    <coding>
                        <system value="http://terminology.hl7.org/CodeSystem/condition-clinical"/>
                        <code value="active"/>
                    </coding>
                </clinicalStatus>
                <verificationStatus>
                    <coding>
                        <system value="http://terminology.hl7.org/CodeSystem/condition-ver-status"/>
                        <code value="confirmed"/>
                    </coding>
                </verificationStatus>
                <category>
                    <coding>
                        <system value="http://terminology.hl7.org/CodeSystem/condition-category"/>
                        <code value="encounter-diagnosis"/>
                        <display value="Encounter Diagnosis"/>
                    </coding>
                    <!--   and also a SNOMED CT coding   -->
                    <coding>
                        <system value="http://snomed.info/sct"/>
                        <code value="439401001"/>
                        <display value="Diagnosis"/>
                    </coding>
                </category>
                <severity>
                    <coding>
                        <system value="http://snomed.info/sct"/>
                        <code value="24484000"/>
                        <display value="Severe"/>
                    </coding>
                </severity>
                <code>
                    <coding>
                        <system value="http://snomed.info/sct"/>
                        <code value="39065001"/>
                        <display value="Burn of ear"/>
                    </coding>
                    <text value="Burnt Ear"/>
                </code>
                <bodySite>
                    <coding>
                        <system value="http://snomed.info/sct"/>
                        <code value="49521004"/>
                        <display value="Left external ear structure"/>
                    </coding>
                    <text value="Left Ear"/>
                </bodySite>
                <subject>
                    <reference value="Patient/f201"/>
                </subject>
                <onsetDateTime value="2012-05-24"/>
            </Condition>
        </resource>
    </entry>
</Bundle>